aX,aY,aZ,gX,gY,gZ
-1.674,0.409,0.594,33.020,-3.906,-84.656
-1.754,0.236,0.738,42.053,-15.869,-93.079
-1.755,0.082,0.865,24.719,-28.076,-85.938
-1.602,-0.150,1.079,-1.343,-39.429,-70.496
-1.485,-0.273,1.311,-17.334,-40.283,-58.167
-1.319,-0.394,1.495,-16.724,-28.259,-46.021
-1.287,-0.513,1.666,-6.531,-12.451,-29.053
-1.181,-0.453,1.733,-7.141,0.549,-10.742
-0.950,-0.332,1.745,-14.771,12.268,-1.221
-0.811,-0.205,1.712,-11.658,28.748,5.371
-0.693,-0.127,1.562,3.174,51.575,12.146
-0.750,-0.052,1.337,25.574,69.763,13.367
-0.861,-0.008,1.133,46.631,79.468,16.052
-0.865,0.003,0.926,52.490,78.796,22.461
-0.901,0.076,0.818,45.898,66.101,32.715
-1.012,0.152,0.834,36.499,51.025,41.809
-1.081,0.199,0.925,16.174,37.781,46.448
-1.144,0.238,1.087,-15.991,28.381,49.438
-1.198,0.252,1.248,-49.194,27.222,51.819
-1.255,0.259,1.331,-77.637,32.959,51.941
-1.271,0.238,1.312,-91.370,46.204,51.758
-1.197,0.239,1.264,-82.581,60.608,54.626
-1.192,0.357,1.242,-54.749,76.172,58.594
-1.233,0.462,1.211,-13.245,92.346,54.382
-1.153,0.509,1.026,25.635,102.173,41.626
-1.023,0.492,0.864,49.133,103.210,32.593
-0.918,0.442,0.775,59.387,99.976,30.579
-0.808,0.358,0.718,61.279,94.910,30.396
-0.617,0.250,0.671,61.401,87.646,31.677
-0.472,0.231,0.687,67.505,75.806,38.086
-0.385,0.306,0.751,80.078,62.439,45.715
-0.260,0.340,0.801,95.337,47.119,47.180
-0.066,0.344,0.833,102.173,30.823,42.542
0.119,0.335,0.852,96.680,22.278,34.119
0.358,0.250,0.824,85.022,22.339,26.367
0.594,0.113,0.758,66.467,26.306,22.949
0.670,0.012,0.700,44.922,29.297,22.095
0.672,-0.085,0.652,22.827,31.799,22.583
0.736,-0.117,0.580,4.456,31.555,21.606
0.667,-0.147,0.596,-1.892,25.330,17.944
0.633,-0.185,0.666,-1.831,17.334,15.625
0.670,-0.179,0.701,-1.343,6.409,17.212
0.685,-0.161,0.726,2.319,-4.456,23.132
0.672,-0.125,0.806,9.766,-8.301,25.635
0.774,-0.155,0.779,6.104,-14.282,27.283
0.797,-0.140,0.801,-2.319,-20.142,25.696
0.652,-0.130,0.867,-7.629,-20.020,21.301
0.790,-0.248,0.843,-16.846,-15.320,17.578
0.819,-0.267,0.828,-28.748,-18.005,21.912
0.670,-0.191,0.870,-28.015,-25.146,32.837
0.712,-0.153,0.877,-17.761,-32.532,40.833
0.807,-0.065,0.905,-5.859,-42.969,44.861
0.785,0.019,0.950,9.277,-50.842,45.227
0.888,0.014,0.924,17.334,-52.551,43.274
0.902,0.086,0.909,13.367,-52.490,40.710
0.949,0.091,0.858,10.254,-50.598,36.255
0.990,0.089,0.830,9.766,-49.011,31.860
0.953,0.149,0.831,8.057,-51.270,30.457
0.901,0.177,0.882,7.385,-54.871,31.067
0.866,0.204,0.940,6.470,-58.716,28.381
0.852,0.229,1.006,6.531,-61.279,23.499
0.852,0.248,1.081,7.385,-60.974,15.747
0.885,0.219,1.116,3.540,-55.847,4.578
0.904,0.169,1.100,-4.333,-45.471,-7.019
0.868,0.156,1.078,-9.827,-34.302,-16.846
0.819,0.139,1.076,-11.475,-25.085,-26.184
0.743,0.110,1.072,-17.944,-22.217,-31.860
0.710,0.078,1.123,-25.574,-13.733,-32.471
0.660,0.030,1.161,-35.522,-8.850,-32.471
0.650,-0.063,1.180,-42.419,-7.935,-34.729
0.695,-0.162,1.197,-43.579,-8.606,-36.133
0.800,-0.237,1.222,-39.612,-12.146,-34.607
0.918,-0.266,1.248,-32.776,-17.029,-30.212
1.065,-0.271,1.247,-24.658,-20.813,-25.452
1.241,-0.245,1.206,-18.188,-21.301,-22.644
1.395,-0.232,1.131,-13.916,-19.348,-20.325
1.514,-0.218,1.036,-11.230,-18.188,-18.188
1.601,-0.192,0.942,-8.484,-22.278,-16.174
1.642,-0.144,0.877,-4.517,-32.654,-16.907
1.643,-0.115,0.872,-1.038,-47.302,-19.958
1.632,-0.098,0.913,-0.610,-64.758,-22.827
1.574,-0.084,0.972,-2.258,-80.872,-26.489
1.509,-0.055,0.965,-2.747,-90.210,-32.349
1.419,0.013,0.902,0.854,-94.849,-39.490
1.281,0.106,0.804,10.010,-96.375,-47.119
1.131,0.245,0.659,23.254,-94.666,-54.504
0.908,0.431,0.485,39.490,-90.576,-61.340
0.545,0.659,0.264,53.711,-85.571,-65.247
0.045,0.881,0.003,63.232,-82.153,-66.956
-0.508,1.078,-0.167,69.092,-83.191,-71.228
-1.115,1.301,-0.159,79.956,-84.473,-81.482
-1.851,1.494,-0.126,100.098,-76.050,-100.525
-2.639,1.583,-0.153,115.417,-49.744,-122.681
-3.396,1.539,-0.193,98.511,-11.353,-139.954
-4.000,1.224,-0.167,44.067,20.996,-156.799
-4.000,0.616,-0.108,-13.489,32.715,-186.218
-4.000,-0.167,0.033,-52.673,18.005,-219.971
-3.969,-1.044,0.479,-94.116,-29.114,-221.924
-2.995,-1.562,1.141,-158.875,-96.985,-167.542
-2.082,-1.600,2.084,-217.102,-155.701,-63.110
-1.425,-1.344,2.857,-205.078,-174.377,44.128
-1.038,-0.810,3.051,-113.831,-120.300,113.098
-0.925,-0.343,2.763,17.883,-9.705,132.935
-1.079,0.186,2.243,132.812,92.468,117.126
-1.280,0.603,1.561,188.538,163.208,108.154
-1.360,1.002,0.989,165.527,211.609,106.628
-1.436,1.104,0.690,83.618,226.929,106.262
-1.447,1.005,0.467,-20.386,209.351,96.924
-1.345,0.757,0.448,-100.647,181.885,82.336
-1.212,0.491,0.555,-127.014,153.503,70.007
-1.077,0.312,0.645,-107.361,126.892,57.678
-0.897,0.199,0.689,-61.096,102.966,48.218
-0.718,0.161,0.746,-13.245,83.923,45.166
-0.631,0.183,0.833,23.071,68.176,47.241
-0.602,0.218,0.926,45.837,55.359,50.476
-0.594,0.244,1.032,52.917,48.340,51.880
-0.570,0.232,1.145,40.466,47.180,50.964
-0.484,0.148,1.184,13.062,54.382,49.988
-0.417,0.083,1.130,-13.672,69.519,51.270

1.521,0.224,0.861,0.916,-49.316,-23.621
1.536,0.255,0.840,4.822,-60.425,-28.809
1.503,0.267,0.833,2.625,-69.031,-37.964
1.430,0.219,0.831,-4.028,-74.585,-47.974
1.321,0.146,0.836,-10.803,-78.979,-56.091
1.204,0.073,0.831,-14.648,-84.961,-62.622
1.105,0.008,0.840,-14.343,-93.384,-67.932
1.017,-0.049,0.862,-10.437,-103.027,-71.228
0.938,-0.096,0.845,-4.395,-111.450,-72.449
0.844,-0.102,0.811,3.174,-118.286,-71.533
0.734,-0.059,0.768,9.888,-121.460,-68.176
0.600,0.007,0.717,15.808,-118.286,-62.561
0.408,0.090,0.663,21.118,-108.826,-56.396
0.146,0.247,0.527,29.785,-92.346,-49.438
-0.233,0.508,0.277,44.373,-71.228,-42.603
-0.667,0.771,0.074,55.908,-51.697,-35.461
-1.181,1.047,0.057,61.768,-32.593,-27.954
-1.814,1.454,0.115,61.157,-9.216,-31.921
-2.445,1.670,0.233,65.063,18.433,-63.660
-2.995,1.653,0.260,61.646,40.771,-107.849
-3.434,1.411,0.352,36.194,52.856,-147.644
-3.680,0.982,0.517,7.568,47.729,-187.561
-3.740,0.243,0.658,-6.897,24.841,-222.778
-3.486,-0.568,0.612,-31.494,-9.644,-233.948
-2.935,-1.267,0.890,-79.773,-63.599,-204.041
-2.212,-1.541,1.408,-127.625,-132.324,-138.916
-1.617,-1.520,2.114,-143.433,-171.570,-54.077
-1.251,-1.298,2.715,-118.591,-160.400,25.879
-0.914,-0.955,2.912,-68.420,-114.258,77.698
-0.748,-0.533,2.727,-5.859,-44.617,97.351
-0.800,-0.125,2.380,67.627,34.729,95.886
-1.061,0.277,1.868,118.835,100.525,88.989
-1.299,0.598,1.319,129.761,154.053,88.928
-1.461,0.735,0.835,98.694,193.542,90.576
-1.485,0.751,0.410,35.645,203.369,83.862
-1.352,0.627,0.133,-24.353,192.017,73.181
-1.200,0.471,0.071,-57.617,167.236,63.110
-1.115,0.302,0.185,-62.134,137.939,57.861
-0.985,0.202,0.351,-52.612,111.267,58.105
-0.891,0.182,0.531,-36.865,87.891,62.073
-0.801,0.217,0.666,-16.418,71.899,67.749
-0.741,0.240,0.749,5.981,63.354,71.655
-0.657,0.270,0.724,26.245,56.274,70.313
-0.541,0.253,0.731,39.246,43.823,66.467
-0.412,0.243,0.772,38.818,31.128,63.660
-0.373,0.188,0.857,28.503,22.461,58.533
-0.308,0.092,0.947,10.437,16.235,54.077
-0.111,0.015,0.995,-16.052,12.268,52.307
-0.048,0.008,1.092,-41.077,10.315,58.716
-0.064,0.079,1.178,-51.697,14.587,69.092
0.038,0.084,1.193,-42.603,23.926,76.233
0.213,0.143,1.072,-21.973,34.363,79.895
0.296,0.146,1.033,6.653,47.363,83.984
0.211,0.250,0.900,28.564,52.551,84.961
0.229,0.281,0.811,37.720,60.730,81.177
0.266,0.280,0.713,29.358,64.270,74.219
0.288,0.275,0.632,11.780,57.800,66.040
0.271,0.244,0.623,-5.493,47.791,54.932
0.322,0.189,0.642,-20.020,34.973,46.509
0.300,0.190,0.739,-27.161,20.569,42.786
0.365,0.187,0.848,-26.611,9.338,41.748
0.423,0.194,0.978,-21.240,2.808,39.124
0.515,0.174,1.062,-9.949,4.150,36.316
0.612,0.117,1.103,0.916,11.108,35.217
0.587,0.104,1.146,4.333,22.827,36.499
0.593,0.072,1.106,0.244,37.231,36.255
0.607,0.033,1.026,-2.380,48.584,35.522
0.632,0.008,0.935,3.967,52.917,35.217
0.628,0.029,0.859,17.883,48.645,35.828
0.691,0.063,0.801,31.555,40.649,38.757
0.688,0.167,0.843,42.236,30.823,44.373
0.752,0.242,0.861,48.584,22.705,47.913
0.850,0.285,0.891,49.622,17.456,47.241
0.954,0.293,0.890,48.828,14.526,44.250
1.083,0.267,0.854,48.279,14.160,39.856
1.128,0.271,0.810,48.157,15.564,35.583
1.124,0.297,0.744,49.377,17.334,30.701
1.072,0.378,0.680,47.791,16.968,23.437
1.001,0.446,0.643,41.931,13.916,12.695
0.977,0.448,0.614,30.212,9.521,0.854
0.950,0.415,0.602,12.146,4.211,-10.193
0.954,0.333,0.603,-3.784,-2.747,-19.409
0.935,0.237,0.630,-13.916,-11.230,-26.794
0.873,0.147,0.687,-18.372,-19.531,-31.555
0.807,0.102,0.768,-21.667,-26.184,-33.569
0.733,0.074,0.863,-24.841,-30.945,-35.706
0.675,0.038,0.958,-27.893,-32.715,-37.598
0.679,-0.006,1.035,-31.799,-32.471,-38.147
0.729,-0.058,1.076,-33.325,-31.616,-37.476
0.834,-0.120,1.089,-32.104,-31.677,-35.828
0.984,-0.140,1.103,-30.396,-32.959,-32.776
1.157,-0.120,1.112,-25.940,-35.461,-29.358
1.356,-0.084,1.083,-17.761,-39.001,-28.687
1.541,-0.039,1.011,-7.202,-42.542,-29.724
1.657,0.047,0.929,4.150,-47.668,-29.358
1.690,0.128,0.868,15.442,-55.237,-30.334
1.708,0.158,0.842,19.714,-64.087,-36.316
1.684,0.176,0.873,15.320,-73.547,-45.227
1.630,0.172,0.968,7.202,-84.839,-54.626
1.577,0.152,1.081,0.244,-95.703,-64.331
1.517,0.106,1.193,-0.366,-100.769,-74.768
1.461,0.076,1.220,7.141,-97.046,-84.473
1.392,0.102,1.161,23.071,-86.060,-91.736
1.306,0.156,1.019,43.396,-70.251,-101.196
1.130,0.203,0.867,63.354,-53.894,-109.741
0.811,0.352,0.627,75.195,-37.842,-114.624
0.307,0.597,0.355,82.764,-20.081,-114.441
-0.096,0.890,0.088,93.628,-1.465,-112.000
-0.820,1.298,-0.051,109.070,8.301,-103.943
-1.622,1.791,-0.194,122.253,12.817,-98.145
-2.402,2.135,-0.211,114.319,20.569,-96.802
-3.351,2.159,-0.081,65.674,34.180,-99.609
-4.000,1.761,0.053,-26.062,37.109,-115.417
-4.000,0.991,-0.123,-124.390,16.785,-163.879
-4.000,-0.204,-0.001,-164.368,-42.847,-231.323
-4.000,-1.418,0.468,-155.396,-139.832,-271.423
-3.030,-2.166,1.342,-165.283,-238.586,-230.347
-1.899,-2.083,2.407,-200.806,-299.683,-96.130
-1.301,-1.460,3.300,-206.116,-283.936,66.833

-0.682,-0.152,3.177,-48.279,-87.341,134.460
-0.580,-0.043,2.613,78.125,38.940,79.529
-0.860,0.037,1.884,162.781,126.831,46.753
-0.989,0.283,1.074,181.213,179.260,50.903
-1.119,0.563,0.524,152.649,199.402,71.167
-1.259,0.729,0.291,93.018,177.124,84.351
-1.189,0.688,0.377,21.179,132.874,84.656
-1.047,0.540,0.608,-43.762,92.651,78.308
-0.852,0.363,0.808,-80.688,74.463,70.007
-0.818,0.212,0.948,-88.257,71.228,62.500
-0.785,0.180,1.009,-76.721,75.439,62.744
-0.752,0.225,1.009,-51.636,77.515,66.406
-0.691,0.293,0.955,-20.813,73.547,66.223
-0.646,0.376,0.901,10.193,64.880,62.073
-0.588,0.393,0.876,36.072,51.941,56.396
-0.543,0.336,0.874,50.598,39.795,51.819
-0.531,0.266,0.869,48.279,33.630,49.683
-0.535,0.167,0.846,30.396,33.936,51.147
-0.497,0.083,0.802,3.601,39.795,56.213
-0.424,0.057,0.748,-20.630,46.204,65.063
-0.349,0.082,0.735,-33.020,46.875,73.730
-0.300,0.131,0.770,-30.640,38.818,79.102
-0.228,0.173,0.824,-17.883,26.184,78.552
-0.053,0.204,0.878,-1.343,15.076,73.059
0.027,0.239,0.914,12.207,5.737,67.871
0.037,0.230,1.001,18.188,5.066,64.453
0.127,0.161,1.003,12.329,16.235,59.814
0.176,0.123,0.939,-3.967,28.076,56.702
0.211,0.087,0.878,-19.714,39.734,55.359
0.219,0.070,0.775,-29.358,49.011,54.443
0.183,0.051,0.716,-31.128,52.917,52.246
0.139,0.065,0.711,-30.823,52.856,52.307
0.196,0.098,0.700,-31.738,46.692,54.443
0.255,0.167,0.728,-26.794,33.508,56.519
0.322,0.235,0.783,-15.564,17.944,57.800
0.443,0.286,0.838,-4.700,3.967,58.716
0.516,0.339,0.907,5.127,-3.967,58.167
0.568,0.363,0.957,12.268,-6.042,54.077
0.641,0.328,0.986,11.108,-1.953,45.410
0.630,0.291,0.996,2.686,7.385,35.400
0.547,0.218,0.965,-6.592,19.775,26.245
0.365,0.171,0.966,-14.954,32.043,15.930
0.279,0.091,0.870,-22.156,39.673,6.104
0.297,-0.014,0.830,-23.743,39.551,1.343
0.349,-0.056,0.783,-18.433,27.954,4.517
0.341,-0.015,0.821,-6.165,11.169,11.719
0.306,0.055,0.903,7.019,-2.930,17.578
0.343,0.091,0.968,13.000,-11.414,18.921
0.386,0.068,1.071,9.705,-14.587,16.541
0.365,0.036,1.158,2.136,-11.475,15.320
0.349,-0.008,1.215,-4.822,-2.563,14.648
0.356,-0.070,1.214,-6.958,7.690,14.465
0.338,-0.121,1.183,-2.441,15.930,16.602
0.396,-0.146,1.092,8.423,20.142,20.996
0.456,-0.116,1.017,24.109,20.020,27.893
0.511,-0.008,0.943,40.039,17.029,35.034
0.561,0.124,0.883,51.147,12.146,38.757
0.619,0.262,0.847,52.063,8.118,36.560
0.673,0.307,0.820,45.959,7.568,29.724
0.748,0.320,0.785,35.461,7.874,20.813
0.797,0.289,0.757,25.696,6.104,12.878
0.822,0.250,0.737,22.156,2.808,7.080
0.830,0.241,0.725,21.301,-1.282,2.136
0.822,0.248,0.726,20.935,-5.371,-2.136
0.795,0.266,0.735,18.921,-10.071,-7.263
0.746,0.240,0.757,14.954,-13.550,-13.794
0.713,0.206,0.799,8.179,-17.212,-20.508
0.678,0.178,0.863,-1.404,-21.423,-28.076
0.691,0.098,0.943,-11.841,-23.926,-35.828
0.808,0.041,1.021,-22.949,-26.917,-40.222
1.024,0.019,1.092,-31.067,-31.982,-41.016
1.350,-0.038,1.136,-31.433,-39.551,-38.818
1.684,-0.068,1.128,-24.780,-50.110,-33.325
2.065,-0.103,1.056,-13.550,-63.538,-25.330
2.510,-0.068,0.964,-0.732,-83.130,-17.944
2.861,0.034,0.922,15.381,-108.032,-14.465
3.154,0.177,0.905,34.424,-131.409,-18.494
3.222,0.364,0.927,49.011,-146.912,-30.518
3.018,0.547,0.973,55.237,-148.926,-47.546
2.612,0.699,0.982,47.058,-137.817,-71.106
2.083,0.773,0.951,26.001,-117.676,-98.877
1.493,0.766,0.823,4.395,-91.736,-125.916
0.956,0.660,0.606,-9.277,-63.293,-148.193
0.475,0.517,0.469,-11.414,-41.931,-156.982
0.067,0.448,0.382,0.854,-24.414,-148.437
-0.381,0.682,0.195,32.532,-2.625,-126.343
-1.212,1.123,0.163,96.313,25.879,-94.116
-2.276,1.729,0.288,171.326,70.557,-65.491
-3.814,2.348,0.403,210.693,127.319,-41.565
-4.000,3.116,0.251,173.401,158.691,-32.654
-4.000,3.054,0.091,62.622,129.883,-89.111
-4.000,1.950,0.006,-77.393,12.817,-228.699
-4.000,-0.148,0.415,-162.720,-149.536,-382.080
-4.000,-2.045,0.940,-209.106,-280.701,-449.219
-3.019,-3.345,1.748,-260.559,-345.032,-394.897
-1.957,-3.465,2.659,-312.256,-343.750,-218.201
-1.125,-3.063,3.493,-318.787,-297.058,23.804
-0.574,-2.069,3.664,-247.437,-210.022,193.542
-0.591,-0.818,3.332,-96.375,-77.759,253.601
-0.978,0.366,2.652,97.290,61.768,236.389
-1.576,0.786,2.364,275.085,173.279,180.176
-1.590,1.368,1.471,327.393,251.770,103.027
-1.674,1.442,0.727,268.433,295.593,58.533
-1.836,1.169,0.107,140.015,299.805,52.979
-1.748,0.881,-0.247,-9.033,274.902,53.162
-1.649,0.580,-0.272,-117.493,223.450,48.889
-1.537,0.253,-0.081,-154.602,162.903,44.556
-1.337,-0.003,0.216,-130.432,113.525,44.556
-1.103,-0.165,0.566,-74.097,75.500,49.255
-1.016,-0.122,0.842,-14.771,51.575,57.373
-0.875,0.015,0.904,31.494,46.570,68.054
-0.769,0.168,0.880,59.143,50.720,82.031
-0.671,0.328,0.836,62.073,56.030,94.482
-0.597,0.453,0.789,44.556,59.021,98.694
-0.536,0.473,0.789,19.226,59.387,93.506
-0.431,0.401,0.761,-4.028,59.326,81.665
-0.278,0.284,0.784,-17.395,57.007,70.618
-0.171,0.153,0.795,-20.752,53.833,67.261
-0.094,0.088,0.820,-15.442,50.537,69.702

1.267,0.161,1.148,-5.066,7.141,-47.791
1.376,0.172,0.981,-1.831,15.320,-53.955
1.447,0.156,0.808,0.793,17.151,-59.143
1.577,0.170,0.634,0.061,11.963,-65.186
1.622,0.160,0.514,0.671,-2.686,-67.688
1.620,0.125,0.475,3.540,-23.132,-67.505
1.601,0.091,0.510,5.310,-45.898,-67.566
1.565,0.081,0.596,6.409,-68.298,-69.153
1.512,0.098,0.700,10.559,-85.632,-72.693
1.449,0.087,0.780,16.663,-93.689,-79.712
1.421,0.078,0.817,23.010,-93.079,-87.158
1.365,0.113,0.842,31.189,-84.839,-93.750
1.269,0.153,0.844,45.349,-67.444,-101.501
1.112,0.193,0.808,61.951,-43.762,-109.314
0.826,0.281,0.708,73.669,-17.395,-113.831
0.503,0.469,0.537,76.477,7.690,-117.676
0.075,0.719,0.386,69.519,29.053,-122.864
-0.363,1.025,0.277,58.594,47.546,-129.944
-0.852,1.293,0.179,49.133,63.171,-138.184
-1.481,1.575,0.149,41.321,75.378,-141.296
-2.226,1.677,0.374,33.997,85.266,-130.676
-3.130,1.622,0.704,-0.244,93.445,-101.379
-3.984,1.633,0.752,-70.007,83.069,-77.087
-4.000,1.624,0.568,-117.676,33.936,-94.971
-4.000,0.865,0.703,-97.961,-53.589,-157.410
-4.000,-0.459,0.964,-65.552,-180.359,-245.117
-3.338,-1.675,1.417,-66.406,-301.758,-296.936
-2.245,-2.332,2.322,-101.563,-362.122,-254.272
-1.516,-2.506,3.285,-164.185,-358.398,-112.671
-1.035,-2.179,3.826,-218.689,-296.692,66.040
-0.597,-1.456,3.607,-221.985,-169.983,181.213
-0.580,-0.560,3.044,-151.611,-29.114,199.646
-1.148,0.183,2.397,-29.297,75.806,157.837
-1.444,0.605,1.734,107.788,166.016,104.492
-1.545,0.875,1.086,187.744,235.168,79.346
-1.699,0.983,0.555,173.462,256.714,80.505
-1.766,1.035,0.161,94.727,232.117,83.618
-1.702,0.984,0.027,-2.441,182.495,84.229
-1.582,0.822,0.144,-67.200,136.719,79.407
-1.323,0.588,0.265,-83.069,105.591,66.223
-1.063,0.364,0.392,-59.448,81.848,52.124
-0.847,0.206,0.514,-15.076,60.181,48.889
-0.687,0.131,0.620,28.564,40.771,53.772
-0.563,0.155,0.713,55.542,30.151,64.697
-0.459,0.244,0.831,62.378,28.015,78.491
-0.377,0.367,0.878,49.744,32.410,92.163
-0.239,0.446,0.882,29.968,46.021,100.647
-0.089,0.461,0.812,16.846,58.167,98.511
-0.014,0.367,0.741,12.146,62.988,88.867
0.122,0.247,0.656,9.216,62.317,77.820
0.138,0.187,0.671,7.629,56.335,71.899
0.177,0.140,0.701,9.094,49.927,69.153
0.271,0.066,0.748,10.986,38.147,68.237
0.430,0.084,0.762,10.437,20.874,69.092
0.500,0.188,0.805,15.015,7.202,68.542
0.494,0.214,0.876,21.790,1.465,64.026
0.581,0.170,0.866,16.113,3.479,58.350
0.686,0.120,0.861,-3.723,8.911,53.101
0.641,0.052,0.879,-25.940,13.123,49.561
0.577,-0.044,0.925,-45.837,18.433,47.546
0.631,-0.158,0.936,-56.580,19.653,44.189
0.730,-0.286,0.968,-52.795,12.817,45.837
0.788,-0.240,1.026,-36.682,2.625,57.068
0.897,-0.094,1.087,-11.292,-5.615,70.618
1.008,0.076,1.136,12.756,-8.545,78.247
1.153,0.248,1.137,27.161,-6.042,78.979
1.262,0.350,1.058,31.433,1.038,76.965
1.359,0.388,0.923,31.006,11.353,69.580
1.398,0.382,0.789,29.541,17.334,59.204
1.344,0.389,0.655,29.968,17.883,49.377
1.267,0.392,0.558,30.212,14.832,39.185
1.185,0.395,0.506,25.635,6.042,28.748
1.103,0.387,0.508,17.273,-5.188,18.433
1.051,0.335,0.539,7.874,-18.555,8.118
1.012,0.320,0.592,-0.793,-32.104,-2.014
0.981,0.305,0.667,-7.019,-42.725,-12.878
0.945,0.285,0.762,-14.832,-49.927,-22.949
0.892,0.297,0.871,-27.283,-53.406,-30.884
0.849,0.254,0.981,-39.490,-52.673,-40.710
0.838,0.146,1.058,-49.561,-48.462,-49.316
0.865,0.036,1.113,-56.213,-43.213,-53.772
0.911,-0.051,1.133,-56.091,-39.490,-53.955
0.999,-0.091,1.116,-48.462,-37.537,-51.331
1.084,-0.063,1.091,-36.194,-36.743,-47.974
1.176,0.017,1.088,-22.339,-36.377,-45.227
1.249,0.091,1.074,-9.949,-36.011,-45.227
1.278,0.146,1.033,0.732,-35.095,-46.448
1.299,0.198,0.979,6.042,-35.034,-47.302
1.273,0.214,0.968,7.446,-40.344,-48.523
1.241,0.184,0.959,7.629,-52.063,-50.476
1.230,0.165,1.010,5.127,-65.186,-53.467
1.219,0.121,1.097,2.686,-80.566,-56.213
1.273,0.059,1.188,4.639,-95.764,-59.448
1.326,0.010,1.276,14.221,-104.919,-63.904
1.333,-0.019,1.298,28.809,-104.126,-69.702
1.300,-0.037,1.250,42.358,-92.285,-76.294
1.249,-0.049,1.099,51.758,-71.106,-81.360
1.108,-0.021,0.915,56.641,-45.410,-82.214
0.855,0.090,0.610,60.364,-21.973,-75.989
0.455,0.359,0.294,72.632,-5.127,-61.584
-0.138,0.770,-0.009,97.839,4.028,-46.997
-0.746,1.313,-0.346,125.916,6.409,-38.818
-1.672,1.767,-0.520,138.184,2.686,-40.344
-2.719,1.990,-0.436,117.126,-3.052,-58.716
-3.643,1.812,-0.327,51.575,-12.695,-87.952
-4.000,1.195,-0.143,-33.081,-27.649,-130.249
-4.000,0.387,0.101,-81.909,-49.805,-185.181
-4.000,-0.756,0.309,-65.491,-81.238,-241.638
-3.916,-1.703,0.621,-43.091,-122.070,-264.099
-2.988,-2.163,1.186,-62.073,-163.513,-213.135
-2.014,-2.026,1.864,-124.268,-204.834,-95.825
-1.388,-1.463,2.594,-167.603,-211.975,35.522
-0.955,-0.946,3.108,-143.921,-164.551,113.098
-0.750,-0.497,2.971,-83.191,-73.242,132.263
-0.731,-0.168,2.517,2.502,34.241,116.394
-0.946,0.062,1.948,91.431,122.681,98.206
-1.267,0.341,1.295,134.827,176.086,96.741
-1.481,0.677,0.789,127.441,205.078,107.666
-1.660,0.914,0.459,80.322,199.158,112.610

-1.636,0.784,0.276,-37.903,138.855,85.999
-1.494,0.541,0.296,-77.515,115.662,70.068
-1.389,0.313,0.363,-91.492,98.022,56.335
-1.241,0.172,0.456,-83.435,82.031,50.171
-1.065,0.074,0.584,-58.289,66.772,53.711
-0.902,0.053,0.707,-26.855,56.030,63.110
-0.768,0.120,0.794,2.441,49.194,72.083
-0.604,0.224,0.803,24.170,43.823,76.233
-0.422,0.276,0.799,33.691,38.391,78.796
-0.213,0.272,0.808,33.386,33.691,82.153
-0.081,0.248,0.849,23.499,30.579,85.571
-0.034,0.297,0.916,7.141,31.982,87.280
0.046,0.321,0.925,-4.944,36.316,83.923
0.120,0.261,0.969,-8.057,38.208,76.477
0.186,0.170,1.035,-7.202,39.490,71.960
0.274,0.173,1.034,-5.310,40.527,73.914
0.361,0.234,0.996,5.127,38.696,74.280
0.378,0.287,0.987,27.222,33.264,66.772
0.389,0.300,0.938,45.044,28.931,54.749
0.479,0.229,0.925,47.363,28.442,43.213
0.523,0.165,0.924,29.175,27.222,36.072
0.469,0.120,0.981,0.793,29.602,34.607
0.495,0.036,1.008,-22.034,36.255,35.400
0.541,0.002,1.004,-33.447,38.208,36.377
0.520,0.010,1.046,-27.466,34.912,37.964
0.456,0.066,1.083,-8.728,29.602,41.443
0.443,0.136,1.127,10.254,26.001,43.274
0.513,0.162,1.139,21.484,22.522,43.396
0.546,0.220,1.156,26.001,20.874,42.847
0.558,0.243,1.166,24.780,23.743,39.917
0.642,0.198,1.119,19.531,30.273,35.339
0.732,0.130,1.070,15.381,37.170,30.762
0.689,0.099,1.025,14.343,40.894,28.870
0.683,0.045,0.969,17.578,44.250,28.381
0.673,0.025,0.905,24.719,45.227,27.832
0.673,0.040,0.824,34.668,44.067,26.062
0.684,0.096,0.759,42.114,41.565,24.170
0.697,0.161,0.739,46.631,37.720,22.095
0.737,0.162,0.744,47.791,34.180,19.348
0.799,0.201,0.729,43.030,32.349,16.235
0.792,0.203,0.708,35.095,30.396,13.367
0.794,0.208,0.677,25.635,27.893,6.958
0.794,0.231,0.621,14.771,24.231,-0.732
0.776,0.229,0.600,9.399,18.677,-8.362
0.758,0.185,0.605,8.423,11.475,-17.334
0.727,0.107,0.627,7.324,4.333,-25.818
0.703,0.047,0.671,3.723,-0.549,-31.189
0.692,-0.013,0.714,0.854,-3.418,-34.790
0.656,-0.052,0.764,0.488,-5.554,-36.133
0.608,-0.043,0.791,1.770,-8.545,-35.767
0.562,-0.032,0.838,2.563,-12.756,-35.217
0.513,-0.041,0.919,0.854,-16.907,-35.706
0.513,-0.074,1.010,-4.700,-19.836,-36.682
0.554,-0.140,1.093,-12.085,-20.691,-36.926
0.636,-0.213,1.142,-19.226,-19.104,-34.729
0.762,-0.251,1.167,-25.085,-17.212,-30.273
0.923,-0.241,1.153,-26.611,-16.296,-25.146
1.085,-0.168,1.150,-23.010,-16.968,-21.606
1.248,-0.090,1.165,-16.296,-17.822,-19.897
1.410,-0.023,1.185,-12.390,-18.005,-20.325
1.526,0.027,1.172,-11.536,-17.578,-22.339
1.575,0.058,1.100,-11.719,-17.700,-24.963
1.596,0.045,1.008,-14.038,-18.921,-30.212
1.598,-0.030,0.915,-17.517,-22.095,-37.903
1.581,-0.123,0.840,-22.400,-27.405,-44.495
1.590,-0.206,0.787,-27.954,-35.828,-48.401
1.582,-0.248,0.815,-31.616,-51.575,-48.584
1.606,-0.229,0.868,-31.616,-73.975,-47.241
1.638,-0.162,0.917,-22.522,-96.619,-46.692
1.674,-0.085,0.952,-6.409,-115.479,-46.753
1.693,0.037,0.972,14.282,-123.535,-45.654
1.616,0.237,0.909,38.940,-117.554,-44.739
1.439,0.484,0.761,57.068,-100.220,-49.072
1.006,0.739,0.540,60.791,-66.956,-51.392
0.376,1.094,0.160,54.260,-23.010,-51.697
-0.458,1.505,-0.293,35.034,10.010,-48.523
-1.457,1.817,-0.601,6.348,23.987,-48.340
-2.522,1.843,-0.627,-31.494,17.639,-53.833
-3.492,1.728,-0.581,-76.538,-13.123,-66.284
-4.000,1.521,-0.441,-78.430,-68.359,-104.858
-4.000,0.955,-0.262,0.427,-124.207,-170.349
-4.000,0.199,-0.112,80.627,-174.866,-238.037
-4.000,-0.743,0.205,87.341,-238.953,-274.780
-3.963,-1.479,0.854,9.033,-296.387,-259.033
-3.010,-1.811,1.739,-106.140,-332.520,-187.927
-2.120,-1.792,2.738,-188.538,-330.444,-84.167
-1.364,-1.547,3.408,-211.670,-276.917,9.216
-0.903,-1.187,3.529,-179.504,-181.519,59.814
-0.810,-0.733,3.155,-103.210,-62.195,63.110
-0.966,-0.254,2.544,-4.333,86.609,56.396
-1.397,0.092,1.808,72.937,226.257,72.693
-1.798,0.594,0.874,80.322,309.998,92.651
-2.112,0.919,0.152,45.593,341.919,108.704
-2.237,1.196,-0.398,-3.052,323.242,106.873
-2.113,1.151,-0.657,-33.020,262.146,85.022
-1.831,0.859,-0.568,-37.903,188.354,56.946
-1.448,0.511,-0.318,-31.982,130.127,38.574
-1.145,0.226,0.037,-24.902,92.896,33.386
-0.960,0.086,0.328,-16.418,71.350,39.856
-0.859,0.014,0.532,-1.221,63.477,48.096
-0.753,-0.001,0.632,13.733,64.026,52.551
-0.593,0.008,0.642,18.494,64.514,56.458
-0.468,0.069,0.658,17.334,61.279,62.256
-0.361,0.067,0.723,16.785,54.382,68.481
-0.280,0.133,0.780,14.954,44.678,74.097
-0.201,0.253,0.854,13.062,36.194,75.317
-0.027,0.249,0.891,17.334,30.273,69.275
0.200,0.196,0.900,23.621,26.306,61.279
0.405,0.135,0.901,28.320,23.071,57.617
0.589,0.081,0.886,30.212,19.958,57.007
0.684,0.043,0.906,29.053,17.090,56.458
0.626,0.124,0.954,22.827,14.221,55.542
0.600,0.097,1.026,15.137,12.451,53.040
0.652,0.131,1.061,5.859,11.169,46.265
0.627,0.168,1.124,2.441,9.521,36.865
0.697,0.155,1.125,7.446,8.362,27.405
0.814,0.099,1.108,11.536,5.859,21.667
0.817,0.095,1.121,14.404,6.470,20.203
0.822,0.020,1.093,18.738,12.024,18.311

1.436,0.205,1.076,-62.256,-0.427,-21.912
1.482,0.156,1.124,-66.650,-11.902,-26.062
1.528,0.086,1.179,-63.965,-26.428,-30.762
1.550,0.015,1.233,-55.908,-39.429,-35.950
1.564,-0.027,1.230,-45.471,-46.570,-41.931
1.562,-0.017,1.167,-35.767,-47.913,-48.462
1.552,0.026,1.053,-27.649,-45.471,-55.664
1.510,0.103,0.878,-18.433,-40.466,-64.087
1.395,0.190,0.707,-8.545,-37.842,-72.998
1.237,0.305,0.527,-9.155,-37.598,-80.444
1.101,0.426,0.339,-19.653,-38.208,-82.458
0.847,0.545,0.139,-34.241,-39.185,-81.177
0.455,0.646,0.014,-44.678,-42.114,-76.721
-0.015,0.801,-0.136,-49.622,-51.392,-68.787
-0.608,0.967,-0.150,-43.884,-64.148,-58.655
-1.291,1.225,-0.132,-24.353,-76.843,-52.795
-2.056,1.440,-0.010,5.676,-83.801,-53.894
-3.073,1.619,0.126,45.593,-75.745,-64.941
-3.954,1.641,0.105,81.116,-59.998,-91.858
-4.000,1.405,-0.050,102.417,-61.340,-149.780
-4.000,0.537,-0.237,117.676,-92.468,-218.567
-4.000,-0.760,-0.012,98.694,-151.428,-263.855
-3.998,-1.944,0.480,20.874,-222.961,-263.306
-3.078,-2.655,1.334,-79.712,-273.254,-199.280
-2.078,-2.760,2.364,-151.550,-279.053,-72.510
-1.346,-2.101,3.070,-173.950,-224.548,69.580
-0.889,-1.210,3.268,-142.578,-110.962,165.161
-1.019,-0.174,2.884,-67.993,14.587,188.782
-1.301,0.685,2.161,22.827,138.306,157.104
-1.588,0.931,1.417,97.839,252.563,118.469
-1.857,0.958,0.620,95.520,324.768,96.924
-1.941,0.946,-0.103,25.818,337.463,86.670
-1.852,0.831,-0.506,-49.622,295.166,82.642
-1.639,0.636,-0.503,-83.191,220.154,72.144
-1.372,0.398,-0.245,-69.519,142.029,58.228
-1.057,0.171,0.134,-35.522,84.778,50.293
-0.830,0.045,0.433,-7.324,51.147,51.208
-0.636,0.034,0.599,13.855,37.598,60.486
-0.566,0.093,0.684,29.541,34.912,72.937
-0.499,0.220,0.729,36.133,35.767,78.491
-0.416,0.302,0.725,35.522,39.001,77.332
-0.264,0.311,0.778,34.363,35.400,74.463
-0.129,0.378,0.849,29.358,26.123,72.571
-0.001,0.382,0.911,25.330,17.212,67.627
0.147,0.321,0.954,25.208,11.047,61.096
0.272,0.252,0.970,24.475,9.399,56.274
0.369,0.191,0.960,21.667,11.230,54.688
0.462,0.147,0.917,20.386,15.198,54.138
0.523,0.098,0.838,22.644,18.677,51.880
0.496,0.093,0.772,23.926,21.545,48.523
0.457,0.079,0.743,23.437,21.606,46.753
0.432,0.100,0.758,21.667,14.465,42.847
0.382,0.105,0.881,21.118,0.977,36.133
0.316,0.104,1.043,20.752,-13.306,27.649
0.434,0.051,1.111,18.921,-23.743,19.348
0.566,0.010,1.151,19.287,-29.358,13.794
0.575,-0.003,1.178,20.935,-29.846,11.536
0.658,-0.052,1.121,21.301,-24.841,11.047
0.634,-0.050,1.087,17.456,-17.090,14.282
0.591,-0.063,1.027,12.756,-7.751,17.151
0.528,-0.063,1.000,10.742,-2.991,18.555
0.471,-0.056,1.019,10.132,-2.563,18.066
0.473,-0.066,1.049,9.827,-6.104,18.311
0.475,-0.038,1.144,9.888,-13.062,22.644
0.521,-0.033,1.248,12.451,-18.250,29.297
0.585,0.022,1.320,17.273,-20.020,33.508
0.642,0.050,1.361,26.367,-18.677,32.715
0.712,0.052,1.345,36.255,-12.817,29.053
0.775,0.049,1.277,43.518,-4.089,25.085
0.781,0.043,1.179,49.561,5.981,19.775
0.764,0.037,1.058,52.063,15.808,11.902
0.762,0.048,0.917,50.110,25.452,3.296
0.756,0.071,0.787,47.058,30.457,-3.845
0.703,0.102,0.702,45.166,27.893,-8.240
0.592,0.137,0.675,42.114,19.470,-10.071
0.503,0.145,0.709,33.264,7.080,-10.803
0.448,0.115,0.810,20.630,-5.554,-12.268
0.439,0.048,0.930,8.240,-15.137,-14.465
0.474,-0.031,1.040,-3.113,-19.409,-18.188
0.502,-0.116,1.122,-11.902,-18.066,-21.362
0.505,-0.192,1.152,-17.456,-11.841,-21.484
0.493,-0.228,1.136,-18.921,-3.540,-19.104
0.476,-0.220,1.092,-16.479,2.625,-16.418
0.461,-0.191,1.075,-12.207,5.127,-15.442
0.453,-0.168,1.095,-9.155,4.944,-15.747
0.486,-0.163,1.128,-10.132,4.517,-16.113
0.549,-0.172,1.158,-13.977,4.944,-16.113
0.631,-0.195,1.171,-19.409,5.798,-15.564
0.732,-0.225,1.162,-25.269,6.897,-14.709
0.855,-0.230,1.148,-29.663,8.667,-13.062
1.009,-0.228,1.120,-31.006,8.789,-11.047
1.186,-0.206,1.083,-30.029,6.836,-8.972
1.390,-0.161,1.039,-26.245,2.625,-7.507
1.671,-0.103,0.959,-18.250,-4.089,-7.019
1.873,-0.029,0.883,-4.517,-13.550,-7.141
1.999,0.045,0.845,8.423,-23.987,-13.489
2.059,0.073,0.856,9.949,-33.691,-22.644
2.058,0.054,0.912,-3.052,-43.518,-30.701
2.035,-0.002,1.013,-26.550,-52.917,-39.429
1.966,-0.090,1.166,-50.293,-62.012,-49.683
1.794,-0.154,1.345,-65.674,-67.566,-61.035
1.665,-0.291,1.537,-67.505,-66.467,-71.167
1.578,-0.333,1.571,-60.974,-55.115,-72.388
1.348,-0.169,1.495,-40.588,-28.076,-61.646
0.928,0.107,1.272,-7.446,3.418,-47.119
0.255,0.565,0.880,24.963,36.743,-33.569
-0.418,1.158,0.295,53.406,66.772,-25.146
-1.159,1.753,-0.263,63.660,80.078,-22.278
-2.059,1.999,-0.546,33.813,73.792,-20.081
-3.076,2.165,-0.667,-42.419,30.640,-26.428
-3.924,2.029,-0.576,-92.407,-50.476,-67.932
-4.000,1.227,-0.208,-44.373,-134.460,-148.437
-4.000,0.144,0.226,57.373,-185.364,-223.206
-4.000,-1.010,0.591,136.780,-192.688,-246.582
-3.811,-1.580,0.670,145.020,-184.998,-236.511
-3.171,-1.910,0.794,94.910,-175.232,-203.125
-2.372,-1.931,1.221,18.127,-154.785,-130.859
-1.753,-1.527,1.823,-71.777,-147.888,-31.006
-1.220,-0.958,2.398,-129.456,-131.531,56.335

-0.768,-0.078,2.448,-79.834,-8.850,86.548
-0.875,0.013,1.909,1.160,82.092,59.875
-1.138,-0.026,1.383,58.411,160.950,52.979
-1.317,0.125,0.725,63.965,200.439,62.073
-1.386,0.282,0.271,40.161,208.801,75.317
-1.331,0.428,0.027,20.142,194.702,84.717
-1.199,0.509,-0.002,10.071,157.837,83.801
-1.051,0.486,0.125,-1.465,121.643,77.026
-0.862,0.437,0.280,-23.499,98.450,71.228
-0.691,0.357,0.470,-47.668,84.167,70.740
-0.643,0.339,0.657,-68.237,75.867,73.303
-0.723,0.351,0.851,-79.895,71.350,72.876
-0.662,0.336,0.946,-77.576,69.885,65.186
-0.499,0.288,1.000,-61.951,67.993,54.504
-0.302,0.178,1.058,-34.851,64.087,44.983
-0.160,0.072,1.098,-4.883,60.181,41.748
-0.125,0.062,1.123,16.663,57.434,42.969
-0.104,0.059,1.122,26.917,55.664,44.128
-0.119,0.088,1.119,27.771,53.894,45.532
-0.121,0.115,1.103,22.766,52.490,47.241
-0.088,0.125,1.056,17.944,52.673,47.119
-0.011,0.118,0.973,16.541,52.856,45.532
0.080,0.084,0.907,17.700,50.659,44.800
0.183,0.061,0.858,15.930,45.471,45.044
0.303,0.049,0.820,12.512,37.659,44.556
0.324,0.061,0.824,13.489,27.466,42.786
0.298,0.070,0.854,15.381,17.578,41.138
0.321,0.070,0.881,14.771,10.620,38.330
0.362,0.074,0.913,13.733,7.080,34.302
0.300,0.089,0.962,12.756,6.104,29.541
0.264,0.052,0.986,7.141,7.263,25.696
0.353,-0.018,0.980,-1.099,9.827,25.085
0.459,-0.028,0.941,-7.263,11.047,26.672
0.513,0.000,0.896,-4.944,11.169,29.541
0.538,0.035,0.868,5.798,10.620,30.151
0.498,0.072,0.878,17.029,10.193,28.076
0.430,0.093,0.916,22.217,12.451,24.048
0.339,0.085,0.948,18.982,16.663,20.081
0.228,0.040,0.983,7.019,21.606,16.846
0.237,-0.044,0.962,-8.972,26.428,13.977
0.275,-0.110,0.927,-21.118,26.611,13.062
0.309,-0.147,0.898,-21.790,22.217,13.672
0.381,-0.162,0.850,-11.047,15.259,14.160
0.503,-0.161,0.808,3.174,6.592,17.029
0.458,-0.081,0.835,16.846,-3.235,22.339
0.446,-0.018,0.851,23.376,-8.728,27.344
0.463,0.036,0.884,18.555,-10.803,30.701
0.393,0.083,0.958,8.789,-9.155,31.311
0.327,0.056,1.002,-3.113,-7.080,30.151
0.404,-0.023,0.981,-15.747,-6.042,29.785
0.478,-0.072,0.946,-22.705,-7.324,33.142
0.546,-0.109,0.897,-18.127,-11.597,39.246
0.646,-0.119,0.828,-5.066,-17.395,44.434
0.753,-0.067,0.748,11.536,-22.278,47.302
0.785,0.057,0.719,25.330,-26.367,47.729
0.811,0.192,0.708,30.090,-28.748,43.823
0.824,0.319,0.733,26.733,-29.053,35.095
0.849,0.390,0.767,17.639,-28.442,22.827
0.815,0.380,0.814,7.385,-27.039,10.071
0.789,0.324,0.844,-3.479,-24.841,-0.427
0.764,0.261,0.864,-13.062,-21.667,-7.446
0.719,0.201,0.886,-18.738,-18.921,-12.695
0.658,0.127,0.898,-18.921,-17.273,-16.357
0.608,0.068,0.923,-18.311,-16.602,-20.691
0.567,0.044,0.950,-17.273,-16.968,-24.841
0.534,0.017,1.007,-13.672,-17.517,-28.870
0.531,-0.029,1.071,-10.376,-16.418,-31.494
0.570,-0.058,1.126,-10.071,-13.489,-31.433
0.642,-0.091,1.165,-9.644,-8.911,-30.457
0.748,-0.122,1.179,-8.301,-5.249,-29.114
0.917,-0.133,1.154,-8.850,-3.418,-27.039
1.170,-0.091,1.099,-11.169,-4.517,-23.132
1.469,-0.021,1.048,-10.315,-10.071,-19.287
1.881,0.012,0.974,-6.714,-23.743,-15.320
2.332,0.013,0.892,-2.319,-45.471,-10.437
2.874,0.000,0.802,1.160,-71.716,-6.958
3.440,0.045,0.693,2.258,-97.412,-8.545
3.774,0.141,0.662,5.981,-119.812,-16.785
3.650,0.354,0.654,11.841,-134.338,-32.471
3.192,0.577,0.841,24.475,-137.756,-52.063
2.454,0.842,0.953,32.410,-129.761,-73.303
1.684,0.978,1.108,35.950,-113.281,-93.750
0.908,1.072,1.126,27.588,-85.449,-106.079
0.112,1.090,0.899,4.944,-46.875,-106.262
-0.893,1.270,0.512,-11.658,-13.428,-98.816
-1.757,1.563,0.055,9.888,2.014,-93.140
-2.687,1.648,-0.230,63.110,8.057,-93.506
-3.712,1.630,-0.339,106.445,3.418,-95.764
-4.000,1.478,-0.328,108.276,-19.287,-106.140
-4.000,0.991,-0.217,87.341,-55.176,-148.071
-4.000,-0.040,-0.107,72.449,-88.745,-221.375
-4.000,-1.083,0.150,28.381,-126.892,-271.973
-3.997,-1.855,0.677,-63.232,-172.180,-265.869
-2.899,-2.141,1.380,-169.983,-206.604,-198.853
-1.769,-2.093,2.368,-247.742,-202.515,-72.449
-1.099,-1.508,2.891,-267.822,-179.871,45.532
-0.812,-0.880,3.031,-202.515,-125.488,102.905
-0.633,-0.494,2.788,-62.012,-18.188,102.051
-0.548,-0.305,2.288,79.773,95.093,66.956
-0.970,-0.055,1.635,153.931,164.490,50.781
-1.160,0.347,0.964,174.377,213.745,57.251
-1.308,0.738,0.424,148.010,231.812,67.566
-1.370,0.915,0.033,93.506,215.881,73.669
-1.274,0.879,-0.113,33.325,182.495,66.223
-1.174,0.672,0.004,-23.987,141.724,55.359
-1.092,0.432,0.210,-76.172,105.286,50.476
-0.950,0.245,0.464,-115.112,81.848,47.058
-0.904,0.138,0.711,-134.644,71.167,44.067
-0.881,0.090,0.862,-128.479,71.045,44.434
-0.928,0.105,0.953,-97.900,75.012,47.058
-0.867,0.155,0.953,-54.443,79.590,48.218
-0.792,0.180,0.904,-11.169,81.299,50.049
-0.657,0.236,0.825,21.423,79.224,52.917
-0.510,0.260,0.791,46.326,73.792,55.603
-0.376,0.306,0.778,63.721,65.918,54.688
-0.292,0.339,0.772,71.045,57.434,50.659
-0.134,0.282,0.790,69.580,52.673,46.204
-0.033,0.235,0.818,55.725,51.025,43.518
-0.001,0.189,0.811,34.546,52.856,45.959

1.446,-0.320,1.234,-36.438,-8.301,-22.888
1.784,-0.255,1.196,-27.832,-4.822,-20.081
2.101,-0.184,1.070,-15.869,-3.235,-17.212
2.352,-0.074,0.897,-4.456,-2.502,-14.587
2.480,0.034,0.733,4.395,-5.127,-12.268
2.502,0.131,0.605,9.521,-12.939,-15.442
2.420,0.200,0.507,8.667,-22.705,-27.161
2.211,0.238,0.467,1.648,-31.494,-42.603
1.968,0.220,0.459,-13.428,-41.687,-58.777
1.690,0.195,0.493,-33.752,-53.223,-73.120
1.441,0.150,0.526,-51.208,-63.965,-83.618
1.218,0.068,0.580,-66.406,-72.693,-88.928
1.037,0.048,0.586,-74.829,-78.186,-83.984
0.802,0.078,0.598,-65.063,-80.261,-72.571
0.382,0.232,0.648,-38.879,-76.477,-60.486
-0.181,0.579,0.589,-9.155,-62.012,-52.551
-0.725,0.995,0.436,8.850,-41.565,-45.593
-1.320,1.486,0.419,7.507,-16.602,-40.405
-2.059,1.862,0.562,-7.080,14.099,-44.800
-2.779,1.993,0.625,-37.109,48.950,-57.983
-3.590,1.847,0.634,-81.604,67.688,-78.125
-4.000,1.671,0.684,-110.107,52.856,-118.835
-4.000,1.105,0.619,-91.797,3.052,-174.316
-4.000,0.131,0.807,-67.993,-82.581,-209.229
-3.621,-0.718,1.135,-66.956,-194.519,-221.069
-2.678,-1.378,1.640,-69.092,-269.897,-204.041
-1.962,-1.669,2.174,-73.975,-277.771,-143.188
-1.420,-1.636,2.591,-82.397,-238.403,-56.641
-0.987,-1.405,2.717,-83.984,-166.382,19.897
-0.723,-1.026,2.603,-65.613,-80.383,65.979
-0.834,-0.463,2.215,-23.743,4.944,83.862
-1.103,0.020,1.698,40.405,97.900,87.952
-1.305,0.251,1.251,98.694,183.838,87.341
-1.465,0.540,0.637,106.812,218.567,83.008
-1.512,0.624,0.186,86.304,221.985,79.834
-1.438,0.620,-0.075,58.838,203.552,77.881
-1.236,0.542,-0.178,39.795,165.955,73.425
-1.093,0.435,-0.063,32.227,120.789,69.763
-0.946,0.319,0.122,29.297,81.909,68.604
-0.732,0.285,0.359,24.963,52.612,67.932
-0.538,0.271,0.590,20.081,36.255,68.115
-0.449,0.281,0.769,12.817,29.663,68.237
-0.470,0.276,0.896,11.719,32.715,69.153
-0.348,0.257,0.867,15.991,39.429,65.857
-0.272,0.214,0.838,20.569,40.405,60.913
-0.226,0.172,0.818,25.818,36.499,55.664
-0.173,0.098,0.827,33.569,30.579,53.467
-0.133,0.025,0.884,39.185,24.353,55.237
-0.145,0.010,0.996,42.053,17.456,61.951
-0.125,0.082,1.081,47.546,10.620,70.618
-0.056,0.182,1.168,57.800,6.470,74.829
-0.108,0.301,1.267,72.205,6.165,69.702
-0.044,0.310,1.261,82.275,8.789,55.908
0.193,0.243,1.159,79.895,13.489,43.335
0.352,0.191,1.038,67.383,18.494,38.574
0.444,0.099,0.943,51.941,22.583,37.231
0.395,0.060,0.863,28.687,26.001,38.940
0.337,-0.007,0.800,4.456,29.724,39.978
0.271,-0.068,0.823,-9.949,30.884,39.551
0.296,-0.114,0.859,-14.709,26.245,40.955
0.341,-0.075,0.924,-6.653,14.099,43.335
0.361,0.002,0.997,13.123,-1.526,42.236
0.408,0.070,1.067,35.522,-13.977,38.208
0.568,0.100,1.093,47.058,-21.484,34.058
0.651,0.129,1.179,46.265,-23.132,31.555
0.615,0.156,1.221,33.569,-18.311,30.884
0.731,0.053,1.173,11.658,-8.667,28.198
0.825,-0.023,1.120,-7.690,-0.549,26.245
0.807,-0.083,1.075,-13.184,2.808,25.818
0.834,-0.169,1.008,-6.470,2.380,25.513
0.877,-0.190,0.973,6.958,-0.488,24.353
0.856,-0.112,0.987,24.414,-3.357,23.560
0.828,-0.057,0.987,41.321,-2.991,24.292
0.812,0.010,1.028,51.697,0.366,24.902
0.780,0.059,1.027,51.147,3.357,25.696
0.829,0.065,0.985,45.044,10.376,23.560
0.882,0.075,0.928,36.194,15.381,18.066
0.931,0.059,0.844,30.518,18.005,12.878
0.964,0.063,0.762,31.189,19.836,9.705
0.941,0.076,0.718,35.522,19.775,5.676
0.891,0.096,0.690,38.147,18.372,1.831
0.797,0.130,0.700,36.377,16.663,-1.953
0.719,0.132,0.734,29.602,13.977,-5.676
0.674,0.113,0.775,16.296,9.827,-10.559
0.652,0.051,0.822,0.977,5.371,-15.137
0.647,-0.038,0.876,-10.864,2.747,-17.334
0.613,-0.099,0.911,-18.188,1.709,-17.822
0.591,-0.127,0.923,-19.775,1.465,-18.372
0.587,-0.179,0.959,-16.968,2.502,-18.799
0.582,-0.211,0.988,-15.137,3.418,-18.127
0.580,-0.224,1.001,-16.235,5.066,-17.822
0.605,-0.242,1.000,-18.250,8.301,-17.517
0.679,-0.250,0.981,-20.508,11.047,-15.869
0.742,-0.238,0.954,-22.034,11.902,-13.428
0.812,-0.197,0.925,-22.217,12.024,-11.841
0.891,-0.146,0.893,-21.362,10.437,-10.681
0.977,-0.093,0.862,-19.714,7.507,-10.742
1.055,-0.056,0.829,-18.127,3.723,-13.123
1.104,-0.035,0.801,-17.273,-0.183,-16.602
1.117,-0.015,0.773,-17.395,-3.479,-20.386
1.097,0.002,0.743,-16.785,-6.653,-24.902
1.058,0.013,0.721,-15.869,-10.071,-29.358
1.005,0.021,0.698,-16.541,-14.832,-32.471
0.969,0.016,0.668,-18.372,-23.010,-34.241
0.939,0.002,0.658,-18.860,-32.837,-36.011
0.924,-0.020,0.668,-17.090,-43.457,-38.635
0.929,-0.069,0.689,-15.991,-54.321,-42.297
0.938,-0.114,0.719,-16.785,-63.477,-44.189
0.928,-0.138,0.749,-19.348,-69.458,-44.312
0.908,-0.129,0.777,-22.400,-72.205,-43.762
0.893,-0.147,0.827,-24.048,-71.045,-42.847
0.873,-0.163,0.876,-24.536,-65.002,-39.917
0.803,-0.108,0.891,-25.146,-55.847,-34.729
0.726,-0.015,0.869,-22.888,-45.349,-31.616
0.603,0.095,0.828,-18.250,-33.264,-31.982
0.438,0.252,0.745,-14.954,-20.752,-34.973
0.233,0.450,0.619,-12.939,-8.423,-40.466
-0.012,0.607,0.501,-9.399,4.395,-48.828
-0.223,0.771,0.364,-12.634,17.029,-59.326

-1.781,0.889,0.444,-92.163,39.307,-44.067
-2.382,0.935,0.623,-77.637,20.569,-54.871
-2.923,0.934,0.653,-47.913,-28.015,-73.792
-3.054,0.751,0.821,-18.494,-75.317,-101.563
-2.964,0.396,1.101,-8.789,-121.399,-135.559
-2.717,-0.059,1.332,-19.165,-161.316,-160.217
-2.302,-0.561,1.617,-44.373,-185.852,-163.818
-1.858,-0.993,1.918,-71.716,-190.613,-138.733
-1.440,-1.218,2.101,-86.304,-175.171,-91.858
-1.191,-1.199,2.220,-80.994,-144.104,-37.415
-1.019,-0.962,2.231,-54.810,-95.276,8.179
-0.963,-0.567,2.112,-17.212,-31.616,42.297
-0.957,-0.150,1.858,20.996,33.813,61.951
-1.098,0.190,1.584,49.500,86.975,68.542
-1.236,0.371,1.311,61.890,126.160,68.298
-1.347,0.433,1.051,51.575,151.123,66.772
-1.446,0.448,0.847,25.269,159.241,65.491
-1.480,0.414,0.689,0.610,152.039,64.209
-1.491,0.341,0.665,-10.742,134.521,61.096
-1.523,0.261,0.757,-13.489,113.159,56.641
-1.443,0.215,0.858,-12.024,93.750,52.429
-1.284,0.167,0.936,-6.653,80.444,49.255
-1.120,0.145,1.001,2.991,73.120,49.011
-0.934,0.144,1.000,13.184,70.496,52.673
-0.755,0.149,1.000,24.109,68.970,58.838
-0.684,0.198,1.000,36.011,66.528,65.857
-0.629,0.262,0.951,45.593,58.289,71.655
-0.456,0.229,0.920,54.260,45.349,73.059
-0.242,0.186,0.921,65.186,31.982,74.158
-0.097,0.208,0.943,78.003,19.653,74.280
0.055,0.207,0.914,87.097,6.958,71.045
0.206,0.173,0.892,91.370,-1.709,65.125
0.343,0.153,0.821,87.524,-4.395,59.998
0.507,0.123,0.793,77.209,-2.075,58.655
0.554,0.139,0.735,61.707,0.610,59.998
0.557,0.160,0.698,45.105,4.883,59.998
0.580,0.131,0.704,29.480,5.493,60.425
0.487,0.154,0.798,15.869,0.122,58.411
0.518,0.063,0.900,6.104,-8.728,53.955
0.549,-0.029,1.031,-2.197,-17.944,54.260
0.612,-0.014,1.142,-9.338,-24.841,57.129
0.723,-0.013,1.230,-6.531,-28.992,53.284
0.806,-0.039,1.303,5.676,-29.053,44.800
0.909,-0.059,1.316,21.545,-22.278,37.109
0.990,-0.117,1.288,32.593,-9.460,32.166
1.034,-0.184,1.202,34.363,7.019,29.663
1.034,-0.230,1.091,30.334,26.306,31.921
1.081,-0.250,0.924,30.029,42.053,36.560
1.139,-0.245,0.760,38.269,50.537,40.222
1.238,-0.165,0.624,53.894,51.270,43.030
1.289,0.028,0.540,74.341,44.373,44.312
1.366,0.238,0.519,93.262,32.776,43.579
1.439,0.478,0.527,103.149,17.578,37.537
1.471,0.626,0.565,99.365,2.808,27.161
1.459,0.689,0.634,80.078,1.587,12.207
1.413,0.619,0.697,44.495,12.207,-3.906
1.295,0.468,0.705,-4.700,24.292,-17.517
1.177,0.286,0.708,-53.101,32.654,-26.733
1.071,0.095,0.723,-85.876,35.339,-32.837
0.953,-0.076,0.765,-99.670,30.151,-36.865
0.905,-0.220,0.828,-97.656,17.944,-38.208
0.954,-0.356,0.916,-87.158,3.296,-35.706
0.945,-0.479,1.041,-72.205,-9.399,-28.870
1.086,-0.563,1.112,-57.495,-15.869,-22.400
1.251,-0.575,1.162,-48.523,-17.456,-14.587
1.413,-0.518,1.180,-41.382,-15.442,-6.470
1.576,-0.437,1.171,-34.119,-11.292,-1.160
1.698,-0.351,1.123,-27.466,-6.775,2.014
1.769,-0.221,1.058,-19.897,-2.563,3.357
1.779,-0.100,0.948,-11.658,1.282,3.601
1.766,-0.005,0.825,-4.211,3.479,1.709
1.722,0.075,0.707,-2.808,1.526,-2.563
1.647,0.173,0.600,-9.705,-2.441,-10.498
1.572,0.238,0.508,-23.254,-6.287,-23.437
1.458,0.306,0.452,-41.504,-13.977,-36.987
1.284,0.390,0.398,-61.523,-26.123,-50.842
1.073,0.474,0.343,-76.721,-40.710,-65.552
0.818,0.583,0.316,-85.205,-56.396,-79.651
0.562,0.668,0.256,-90.942,-71.228,-91.797
0.274,0.717,0.203,-99.365,-83.618,-102.600
0.054,0.682,0.197,-115.417,-92.834,-109.558
-0.214,0.551,0.287,-132.629,-96.985,-103.699
-0.500,0.574,0.335,-139.038,-92.834,-88.440
-0.873,0.728,0.389,-122.253,-77.759,-72.998
-1.345,0.916,0.443,-75.195,-50.476,-68.848
-1.963,1.084,0.439,-10.254,-11.475,-75.989
-2.717,1.062,0.457,46.997,28.748,-89.478
-3.512,1.206,0.330,85.388,43.884,-118.530
-4.000,0.999,0.097,106.445,24.841,-146.057
-4.000,0.675,0.041,75.195,-38.025,-160.767
-3.998,0.071,0.517,23.743,-143.921,-166.199
-3.279,-0.530,1.060,-25.391,-247.131,-166.443
-2.517,-0.965,1.735,-70.435,-314.697,-141.907
-1.800,-1.123,2.413,-101.440,-330.261,-80.261
-1.163,-1.093,2.937,-109.741,-299.622,2.991
-0.795,-0.947,3.175,-89.233,-232.727,74.707
-0.632,-0.500,2.875,-39.246,-133.362,107.361
-0.778,-0.105,2.767,41.870,-13.977,104.980
-0.929,0.366,2.094,102.661,107.422,86.426
-1.275,0.586,1.545,129.761,189.941,72.937
-1.420,0.693,1.005,127.808,233.337,68.665
-1.525,0.744,0.610,87.585,241.699,69.458
-1.544,0.714,0.425,37.781,222.412,71.899
-1.438,0.646,0.365,0.183,185.486,71.106
-1.286,0.543,0.438,-23.132,144.165,69.458
-1.135,0.431,0.590,-28.931,112.793,65.613
-0.921,0.307,0.720,-19.409,92.529,57.739
-0.773,0.147,0.890,-5.432,79.285,52.307
-0.605,0.051,0.969,7.629,74.463,54.688
-0.430,0.003,0.956,21.179,76.294,62.927
-0.284,0.006,0.905,37.048,77.332,71.289
-0.235,0.037,0.828,53.406,72.693,79.102
-0.192,0.027,0.768,67.688,67.871,86.975
-0.148,0.023,0.744,78.247,62.134,94.788
-0.069,0.094,0.740,83.618,51.880,101.624
-0.022,0.247,0.773,89.539,35.767,102.478
0.083,0.344,0.813,96.863,19.348,91.370
0.233,0.402,0.850,100.037,8.728,70.251
0.325,0.353,0.904,91.919,1.221,48.767

1.743,-0.091,0.704,7.935,-14.709,-2.625
1.908,0.031,0.666,16.113,-25.208,-4.333
2.032,0.114,0.645,14.099,-30.029,-10.376
2.056,0.122,0.661,-7.202,-31.128,-19.653
1.991,0.088,0.679,-44.373,-30.212,-27.283
1.867,0.034,0.701,-78.857,-29.724,-34.668
1.726,-0.011,0.708,-98.328,-32.349,-43.152
1.577,-0.078,0.744,-101.929,-37.109,-50.476
1.431,-0.123,0.802,-98.511,-44.617,-54.565
1.262,-0.080,0.818,-93.628,-51.331,-56.335
1.104,-0.011,0.825,-83.069,-53.345,-56.519
0.906,0.135,0.828,-69.092,-49.683,-56.213
0.677,0.303,0.796,-54.382,-38.879,-59.937
0.375,0.484,0.740,-40.283,-21.362,-68.115
0.171,0.701,0.552,-31.921,2.686,-75.928
-0.269,0.934,0.388,-28.564,27.954,-75.317
-0.825,1.209,0.188,-44.312,48.401,-72.388
-1.449,1.452,-0.008,-83.496,55.481,-67.200
-2.033,1.510,-0.024,-136.108,48.950,-57.190
-2.444,1.510,0.050,-179.687,20.142,-47.485
-2.918,1.462,0.420,-174.316,-26.245,-49.438
-3.276,1.378,0.702,-125.549,-83.008,-71.045
-3.228,1.155,1.174,-56.946,-116.699,-100.342
-3.196,0.994,1.461,-14.160,-152.954,-129.883
-3.024,0.735,1.675,2.441,-180.847,-159.668
-2.788,0.278,1.880,7.690,-183.533,-183.472
-2.476,-0.396,1.962,-2.930,-175.171,-197.693
-2.005,-1.092,1.918,-26.672,-163.330,-188.660
-1.571,-1.582,1.820,-44.861,-146.423,-145.447
-1.318,-1.727,1.729,-33.569,-115.845,-77.332
-1.142,-1.487,1.619,6.287,-68.237,-6.042
-1.079,-0.944,1.513,62.012,-12.085,58.899
-1.156,-0.272,1.460,116.455,34.119,108.276
-1.233,0.274,1.315,152.832,68.054,135.803
-1.289,0.633,1.182,161.682,95.642,142.151
-1.250,0.867,1.029,136.780,118.164,132.568
-1.184,0.955,0.896,93.262,131.104,118.530
-1.121,0.922,0.795,49.500,134.277,104.370
-1.089,0.838,0.740,14.404,128.845,91.431
-1.028,0.711,0.705,-6.042,118.225,79.285
-0.938,0.578,0.708,-12.634,105.652,66.223
-0.825,0.444,0.721,-9.949,90.332,53.711
-0.662,0.265,0.758,-1.709,72.388,45.837
-0.420,0.122,0.808,9.216,55.908,46.875
-0.216,0.014,0.908,24.109,45.654,59.448
-0.077,0.059,0.973,39.063,40.466,76.172
-0.018,0.173,0.994,54.199,35.767,85.449
-0.033,0.279,1.013,70.862,31.250,83.252
-0.034,0.320,1.041,79.102,27.527,74.768
0.030,0.284,1.024,75.684,26.489,65.125
0.106,0.244,1.021,66.895,25.818,56.274
0.116,0.250,0.995,56.824,23.682,50.537
0.221,0.194,0.942,49.622,20.691,45.654
0.346,0.136,0.886,48.950,16.602,43.579
0.388,0.113,0.876,53.284,11.902,41.260
0.456,0.039,0.861,56.274,5.371,37.292
0.420,-0.002,0.925,53.711,0.671,35.645
0.339,-0.033,0.994,44.495,1.160,35.034
0.414,-0.122,1.014,33.325,7.263,36.072
0.435,-0.179,1.044,25.940,18.738,39.001
0.407,-0.174,1.045,23.682,28.931,39.795
0.492,-0.198,0.958,23.743,32.715,39.063
0.628,-0.199,0.871,33.752,32.776,35.645
0.704,-0.198,0.801,50.598,28.320,31.067
0.687,-0.136,0.790,63.354,23.315,29.053
0.747,-0.079,0.759,65.552,19.409,27.161
0.775,-0.050,0.766,64.331,16.541,24.902
0.716,-0.016,0.808,59.204,13.916,23.376
0.742,-0.030,0.809,49.072,12.756,22.034
0.818,-0.052,0.819,40.649,13.123,21.973
0.820,-0.031,0.817,38.574,10.986,22.461
0.819,-0.014,0.797,40.283,7.568,20.447
0.849,-0.033,0.747,38.818,5.920,15.503
0.852,-0.039,0.727,33.142,4.517,11.719
0.819,-0.056,0.725,23.193,2.258,9.216
0.777,-0.067,0.740,11.414,-0.244,8.240
0.754,-0.077,0.770,3.418,-3.418,7.690
0.734,-0.111,0.821,1.282,-8.057,6.958
0.700,-0.111,0.881,2.380,-12.756,6.653
0.711,-0.107,0.940,4.700,-15.015,5.798
0.689,-0.095,0.966,7.568,-15.564,5.127
0.600,-0.091,1.000,8.057,-13.855,4.700
0.594,-0.104,0.981,4.700,-7.263,3.784
0.563,-0.108,0.966,-0.916,0.305,2.625
0.500,-0.129,0.928,-6.470,5.371,2.258
0.438,-0.141,0.894,-11.108,8.301,2.441
0.366,-0.136,0.883,-14.038,8.118,1.770
0.309,-0.135,0.886,-14.282,4.333,-0.122
0.283,-0.150,0.907,-13.367,-2.075,-2.075
0.266,-0.163,0.943,-11.047,-8.545,-3.357
0.276,-0.179,0.982,-8.057,-13.000,-4.639
0.287,-0.194,1.003,-5.859,-14.282,-5.737
0.298,-0.205,1.011,-3.967,-13.245,-5.493
0.288,-0.221,1.009,-2.014,-9.644,-4.395
0.289,-0.219,0.994,0.122,-4.578,-3.113
0.274,-0.202,0.980,2.686,-0.366,-1.648
0.260,-0.187,0.955,5.188,3.113,-0.549
0.254,-0.164,0.928,6.104,4.578,0.183
0.228,-0.142,0.919,6.897,3.540,0.549
0.225,-0.147,0.923,7.812,1.160,0.366
0.233,-0.161,0.924,8.118,-1.160,0.366
0.234,-0.178,0.924,10.315,-2.319,0.122
0.245,-0.186,0.925,12.817,-3.723,0.122
0.258,-0.174,0.912,14.893,-4.272,0.610
0.267,-0.155,0.902,18.005,-3.723,0.366
0.252,-0.136,0.895,19.409,-2.625,-0.366
0.245,-0.125,0.881,17.639,-1.038,-1.160
0.246,-0.129,0.873,13.672,0.488,-1.099
0.240,-0.130,0.870,8.606,2.380,-0.061
0.201,-0.139,0.870,5.737,3.296,1.221
0.190,-0.141,0.872,4.883,2.319,1.648
0.180,-0.142,0.869,3.723,-0.366,1.465
0.173,-0.150,0.876,3.906,-3.784,2.014
0.175,-0.150,0.879,4.150,-7.690,1.465
0.195,-0.145,0.893,5.432,-10.193,0.732
0.195,-0.125,0.921,6.897,-11.292,-0.610
0.185,-0.137,0.931,7.019,-10.620,-2.563
0.168,-0.160,0.935,5.615,-8.789,-3.906
0.142,-0.175,0.936,3.601,-6.531,-4.883